File: 6-Extension_material/Data_Analysis_Extension_Material/Data/Z4RX_3PEAKS.uxd
;content of C:\Data 2015\Alistair Garner\Z4RX_3PEAKS.raw - (Diffrac Plus V4 file)
_FILEVERSION = 3
_SAMPLE = ZR4X
_+SAMPLE
_USER = Lab Manager
_GONIOMETER_CODE = 21
_STAGE_CODE = 4
; Goniometer : D8 theta/theta, stage : Open eulerian craddle
_SAMPLE_CHANGER_CODE = 0
_ATTACHMENTS_CODE = 0
_GONIOMETER_RADIUS = 330
_MONOCHROMATOR = 0
; Incident beam monochromator : None
_BETA_FILTER = N
_ANALYZER_CODE = 0
; Received beam analyzer : None
_DATEMEASURED = 30-Sep-2015 11:17:53
_RUNTIME = 61.94665
_WL_UNIT = A
_WL1 = 1.5406
_WL2 = 1.54439
_WL3 = 1.39222
_WLRATIO = 0.5
_ANODE = Cu
_V4_INF_USER = Lab Manager
_V4_INF_SAMPLEID = ZR4X
_V4_INF_CREATOR = V5Converter
_V4_INF_CREATOR_VERSION = 3.3.47.0
_V4_INF_WIZARD_PLUGIN_TYPE = TEXTURE
_V4_INF_TEXTURE_MEAS_GUID = afa0ca6f-52cc-400c-b41c-5e2d64dc5dee
_V4_INF_TEXTURE_MEAS_ID = 1443618093

; Data for range 1
_DRIVE = COUPLED
_STEPTIME = 1.5
_STEPSIZE = 5
_STEPMODE = C
_START = 0
_THETA = 15.9545
_2THETA = 31.909
_KHI = 0
_PHI = 0
_X = -0.00002
_Y = 0
_Z = -0.061992
_DETECTORSLIT = out
_TIMESTARTED = 0
_KV = 40
_MA = 40
_RANGE_WL = 1.5406
_3DPLANE = 0
_V4_PSD2THETA = 9999
_V4_PSDCHANNEL1 = 0
_V4_PSDAPERTURE = 14.325
_V4_PSDTYPE = 5
_V4_PSDFIXED = 0
_V4_COUNTERS_MASK = 1
_V4_DRIVES_MASK = 0
_V4_ENCODERS_MASK = 0
_2THETACOUNTS = 1
; 2THETA	Cnt2_D1
0.000000	351.333
5.000000	378.667
10	363.333
15	336.667
20	374
25	394.667
30	390.667
35	395.333
40	384
45	418.667
50	386
55	406.667
60	368
65	408.667
70	388
75	411.333
80	376.667
85	409.333
90	386
95	402
100	380
105	368
110	364
115	378.667
120	394.667
125	373.333
130	394
135	366.667
140	404.667
145	408
150	380
155	365.333
160	368
165	401.333
170	376.667
175	330
180	342
185	360.667
190	379.333
195	382
200	372
205	336.667
210	398.667
215	410.667
220	381.333
225	404.667
230	380
235	364
240	385.333
245	394
250	432.667
255	432
260	410
265	413.333
270	408.667
275	425.333
280	380
285	385.333
290	397.333
295	380
300	381.333
305	368
310	373.333
315	396.667
320	412.667
325	394.667
330	399.333
335	404.667
340	386.667
345	384.667
350	394
355	386

; Data for range 2
_DRIVE = COUPLED
_STEPTIME = 1.5
_STEPSIZE = 5
_STEPMODE = C
_START = 0
_THETA = 15.9545
_2THETA = 31.909
_KHI = 5
_PHI = 0
_X = -0.00002
_Y = 0
_Z = -0.061992
_DETECTORSLIT = out
_TIMESTARTED = 115.5182
_KV = 40
_MA = 40
_RANGE_WL = 1.5406
_3DPLANE = 0
_V4_PSD2THETA = 9999
_V4_PSDCHANNEL1 = 0
_V4_PSDAPERTURE = 14.325
_V4_PSDTYPE = 5
_V4_PSDFIXED = 0
_V4_COUNTERS_MASK = 1
_V4_DRIVES_MASK = 0
_V4_ENCODERS_MASK = 0
_2THETACOUNTS = 1
; 2THETA	Cnt2_D1
0.000000	406
5.000000	348.667
10	391.333
15	413.333
20	378.667
25	413.333
30	406.667
35	334.667
40	340.667
45	378.667
50	370.667
55	369.333
60	378
65	387.333
70	405.333
75	392.667
80	358.667
85	366.667
90	384
95	405.333
100	360
105	347.333
110	360
115	360.667
120	360
125	375.333
130	349.333
135	444
140	440
145	404
150	383.333
155	404.667
160	338.667
165	393.333
170	392.667
175	377.333
180	354.667
185	368
190	367.333
195	377.333
200	393.333
205	370
210	356
215	401.333
220	418.667
225	378
230	414
235	406
240	380.667
245	392
250	409.333
255	424
260	372
265	360
270	407.333
275	412
280	406
285	388
290	367.333
295	398.667
300	398
305	405.333
310	392
315	450.667
320	411.333
325	403.333
330	380
335	360
340	367.333
345	394
350	403.333
355	426.667

; Data for range 3
_DRIVE = COUPLED
_STEPTIME = 1.5
_STEPSIZE = 5
_STEPMODE = C
_START = 0
_THETA = 15.9545
_2THETA = 31.909
_KHI = 10
_PHI = 0
_X = -0.00002
_Y = 0
_Z = -0.061992
_DETECTORSLIT = out
_TIMESTARTED = 229.648
_KV = 40
_MA = 40
_RANGE_WL = 1.5406
_3DPLANE = 0
_V4_PSD2THETA = 9999
_V4_PSDCHANNEL1 = 0
_V4_PSDAPERTURE = 14.325
_V4_PSDTYPE = 5
_V4_PSDFIXED = 0
_V4_COUNTERS_MASK = 1
_V4_DRIVES_MASK = 0
_V4_ENCODERS_MASK = 0
_2THETACOUNTS = 1
; 2THETA	Cnt2_D1
0.000000	462.667
5.000000	390
10	354.667
15	396
20	376.667
25	390.667
30	348
35	390
40	357.333
45	364.667
50	364
55	410.667
60	386
65	350.667
70	364.667
75	366
80	354
85	346
90	342.667
95	385.333
100	370.667
105	372
110	350
115	384.667
120	374
125	417.333
130	418.667
135	387.333
140	354.667
145	377.333
150	406
155	396.667
160	365.333
165	364
170	366.667
175	368
180	349.333
185	389.333
190	358
195	366.667
200	367.333
205	362.667
210	364.667
215	374.667
220	406.667
225	387.333
230	418.667
235	387.333
240	398.667
245	354
250	366.667
255	362.667
260	370.667
265	336
270	384
275	374
280	391.333
285	381.333
290	388
295	376
300	388.667
305	394
310	448
315	420
320	380.667
325	427.333
330	374
335	398.667
340	399.333
345	436.667
350	418.667
355	451.333

; Data for range 4
_DRIVE = COUPLED
_STEPTIME = 1.5
_STEPSIZE = 5
_STEPMODE = C
_START = 0
_THETA = 15.9545
_2THETA = 31.909
_KHI = 15
_PHI = 0
_X = -0.00002
_Y = 0
_Z = -0.061992
_DETECTORSLIT = out
_TIMESTARTED = 343.4346
_KV = 40
_MA = 40
_RANGE_WL = 1.5406
_3DPLANE = 0
_V4_PSD2THETA = 9999
_V4_PSDCHANNEL1 = 0
_V4_PSDAPERTURE = 14.325
_V4_PSDTYPE = 5
_V4_PSDFIXED = 0
_V4_COUNTERS_MASK = 1
_V4_DRIVES_MASK = 0
_V4_ENCODERS_MASK = 0
_2THETACOUNTS = 1
; 2THETA	Cnt2_D1
0.000000	415.333
5.000000	405.333
10	390.667
15	362
20	348
25	388
30	388.667
35	392
40	402.667
45	390
50	368
55	344.667
60	377.333
65	359.333
70	400.667
75	358.667
80	344
85	358
90	369.333
95	400.667
100	354
105	376.667
110	356.667
115	352
120	354.667
125	376
130	382.667
135	347.333
140	368
145	384.667
150	412
155	378.667
160	384.667
165	376
170	390
175	378
180	393.333
185	350.667
190	407.333
195	377.333
200	364
205	350
210	427.333
215	367.333
220	364
225	348.667
230	376
235	358
240	398
245	380
250	354.667
255	382.667
260	348
265	397.333
270	366.667
275	388
280	424.667
285	388.667
290	388.667
295	372.667
300	398
305	389.333
310	386
315	376.667
320	387.333
325	369.333
330	412.667
335	420.667
340	397.333
345	408
350	429.333
355	350.667

; Data for range 5
_DRIVE = COUPLED
_STEPTIME = 1.5
_STEPSIZE = 5
_STEPMODE = C
_START = 0
_THETA = 15.9545
_2THETA = 31.909
_KHI = 20
_PHI = 0
_X = -0.00002
_Y = 0
_Z = -0.061992
_DETECTORSLIT = out
_TIMESTARTED = 457.0662
_KV = 40
_MA = 40
_RANGE_WL = 1.5406
_3DPLANE = 0
_V4_PSD2THETA = 9999
_V4_PSDCHANNEL1 = 0
_V4_PSDAPERTURE = 14.325
_V4_PSDTYPE = 5
_V4_PSDFIXED = 0
_V4_COUNTERS_MASK = 1
_V4_DRIVES_MASK = 0
_V4_ENCODERS_MASK = 0
_2THETACOUNTS = 1
; 2THETA	Cnt2_D1
0.000000	409.333
5.000000	432
10	448
15	406.667
20	432
25	424
30	402.667
35	422
40	342.667
45	407.333
50	351.333
55	412
60	384.667
65	395.333
70	382.667
75	400.667
80	330.667
85	379.333
90	362
95	372
100	369.333
105	372
110	364.667
115	396.667
120	368.667
125	383.333
130	358
135	399.333
140	391.333
145	399.333
150	380.667
155	410.667
160	416.667
165	376
170	413.333
175	411.333
180	432.667
185	378
190	364.667
195	427.333
200	354.667
205	381.333
210	408.667
215	386
220	368.667
225	330.667
230	384
235	365.333
240	408.667
245	409.333
250	424
255	399.333
260	384
265	424
270	375.333
275	387.333
280	410
285	421.333
290	390
295	402
300	379.333
305	394.667
310	402
315	396
320	380
325	421.333
330	411.333
335	400
340	409.333
345	418
350	420.667
355	404

; Data for range 6
_DRIVE = COUPLED
_STEPTIME = 1.5
_STEPSIZE = 5
_STEPMODE = C
_START = 0
_THETA = 15.9545
_2THETA = 31.909
_KHI = 25
_PHI = 0
_X = -0.00002
_Y = 0
_Z = -0.061992
_DETECTORSLIT = out
_TIMESTARTED = 570.6656
_KV = 40
_MA = 40
_RANGE_WL = 1.5406
_3DPLANE = 0
_V4_PSD2THETA = 9999
_V4_PSDCHANNEL1 = 0
_V4_PSDAPERTURE = 14.325
_V4_PSDTYPE = 5
_V4_PSDFIXED = 0
_V4_COUNTERS_MASK = 1
_V4_DRIVES_MASK = 0
_V4_ENCODERS_MASK = 0
_2THETACOUNTS = 1
; 2THETA	Cnt2_D1
0.000000	434
5.000000	437.333
10	424
15	376.667
20	392.667
25	384.667
30	437.333
35	378
40	397.333
45	354
50	376.667
55	361.333
60	346
65	406
70	390.667
75	360
80	391.333
85	358
90	368
95	350.667
100	375.333
105	381.333
110	392.667
115	392
120	368
125	367.333
130	390.667
135	371.333
140	382
145	384.667
150	387.333
155	404
160	450.667
165	431.333
170	416.667
175	442
180	446
185	456.667
190	433.333
195	410.667
200	409.333
205	414.667
210	402.667
215	382.667
220	399.333
225	401.333
230	365.333
235	401.333
240	436
245	405.333
250	448
255	444.667
260	436.667
265	424.667
270	456
275	444
280	408
285	473.333
290	393.333
295	436
300	426.667
305	378.667
310	434.667
315	372.667
320	400
325	424.667
330	395.333
335	408
340	406
345	414
350	435.333
355	453.333

; Data for range 7
_DRIVE = COUPLED
_STEPTIME = 1.5
_STEPSIZE = 5
_STEPMODE = C
_START = 0
_THETA = 15.9545
_2THETA = 31.909
_KHI = 30
_PHI = 0
_X = -0.00002
_Y = 0
_Z = -0.061992
_DETECTORSLIT = out
_TIMESTARTED = 684.2806
_KV = 40
_MA = 40
_RANGE_WL = 1.5406
_3DPLANE = 0
_V4_PSD2THETA = 9999
_V4_PSDCHANNEL1 = 0
_V4_PSDAPERTURE = 14.325
_V4_PSDTYPE = 5
_V4_PSDFIXED = 0
_V4_COUNTERS_MASK = 1
_V4_DRIVES_MASK = 0
_V4_ENCODERS_MASK = 0
_2THETACOUNTS = 1
; 2THETA	Cnt2_D1
0.000000	495.333
5.000000	480
10	512.667
15	420
20	450
25	410.667
30	376
35	430
40	420
45	381.333
50	392.667
55	378.667
60	388.667
65	362
70	385.333
75	358
80	370
85	360
90	358
95	360
100	373.333
105	369.333
110	355.333
115	332
120	383.333
125	424.667
130	407.333
135	416
140	423.333
145	414.667
150	415.333
155	439.333
160	418.667
165	480
170	458
175	421.333
180	485.333
185	444.667
190	444
195	473.333
200	408.667
205	418
210	394
215	381.333
220	394
225	454
230	399.333
235	400
240	420.667
245	413.333
250	442.667
255	490
260	493.333
265	503.333
270	544.667
275	488
280	476.667
285	442
290	477.333
295	475.333
300	404.667
305	404.667
310	405.333
315	408
320	398
325	445.333
330	395.333
335	463.333
340	478.667
345	481.333
350	533.333
355	472.667

; Data for range 8
_DRIVE = COUPLED
_STEPTIME = 1.5
_STEPSIZE = 5
_STEPMODE = C
_START = 0
_THETA = 15.9545
_2THETA = 31.909
_KHI = 35
_PHI = 0
_X = -0.00002
_Y = 0
_Z = -0.061992
_DETECTORSLIT = out
_TIMESTARTED = 797.8488
_KV = 40
_MA = 40
_RANGE_WL = 1.5406
_3DPLANE = 0
_V4_PSD2THETA = 9999
_V4_PSDCHANNEL1 = 0
_V4_PSDAPERTURE = 14.325
_V4_PSDTYPE = 5
_V4_PSDFIXED = 0
_V4_COUNTERS_MASK = 1
_V4_DRIVES_MASK = 0
_V4_ENCODERS_MASK = 0
_2THETACOUNTS = 1
; 2THETA	Cnt2_D1
0.000000	501.333
5.000000	542.667
10	524
15	511.333
20	450
25	463.333
30	418.667
35	468.667
40	432.667
45	430
50	410.667
55	386.667
60	392
65	380
70	389.333
75	378.667
80	399.333
85	356
90	382.667
95	392.667
100	338
105	388
110	396
115	390
120	414
125	402
130	401.333
135	411.333
140	462
145	424.667
150	429.333
155	473.333
160	432.667
165	513.333
170	486
175	537.333
180	518
185	560.667
190	498
195	460.667
200	442.667
205	447.333
210	438.667
215	447.333
220	412.667
225	444
230	441.333
235	458
240	439.333
245	446.667
250	490.667
255	543.333
260	598
265	584.667
270	602.667
275	574
280	540
285	552.667
290	492
295	496.667
300	482.667
305	440
310	462
315	398.667
320	436.667
325	455.333
330	455.333
335	470
340	452.667
345	468
350	458.667
355	526

; Data for range 9
_DRIVE = COUPLED
_STEPTIME = 1.5
_STEPSIZE = 5
_STEPMODE = C
_START = 0
_THETA = 15.9545
_2THETA = 31.909
_KHI = 40
_PHI = 0
_X = -0.00002
_Y = 0
_Z = -0.061992
_DETECTORSLIT = out
_TIMESTARTED = 911.495
_KV = 40
_MA = 40
_RANGE_WL = 1.5406
_3DPLANE = 0
_V4_PSD2THETA = 9999
_V4_PSDCHANNEL1 = 0
_V4_PSDAPERTURE = 14.325
_V4_PSDTYPE = 5
_V4_PSDFIXED = 0
_V4_COUNTERS_MASK = 1
_V4_DRIVES_MASK = 0
_V4_ENCODERS_MASK = 0
_2THETACOUNTS = 1
; 2THETA	Cnt2_D1
0.000000	593.333
5.000000	619.333
10	602.667
15	564.667
20	517.333
25	480
30	502.667
35	488
40	490
45	430.667
50	460.667
55	373.333
60	418.667
65	401.333
70	413.333
75	412
80	388
85	380.667
90	413.333
95	385.333
100	376
105	390.667
110	416
115	426.667
120	453.333
125	418
130	483.333
135	449.333
140	456.667
145	508.667
150	509.333
155	569.333
160	576
165	536.667
170	564
175	583.333
180	570.667
185	604
190	609.333
195	492.667
200	528
205	488.667
210	455.333
215	484.667
220	458
225	505.333
230	448
235	458
240	483.333
245	507.333
250	520.667
255	568
260	586
265	616
270	619.333
275	606
280	614.667
285	568
290	555.333
295	523.333
300	485.333
305	451.333
310	504
315	466
320	494
325	512.667
330	472.667
335	577.333
340	544
345	494
350	550
355	626.667

; Data for range 10
_DRIVE = COUPLED
_STEPTIME = 1.5
_STEPSIZE = 5
_STEPMODE = C
_START = 0
_THETA = 15.9545
_2THETA = 31.909
_KHI = 45
_PHI = 0
_X = -0.00002
_Y = 0
_Z = -0.061992
_DETECTORSLIT = out
_TIMESTARTED = 1025.141
_KV = 40
_MA = 40
_RANGE_WL = 1.5406
_3DPLANE = 0
_V4_PSD2THETA = 9999
_V4_PSDCHANNEL1 = 0
_V4_PSDAPERTURE = 14.325
_V4_PSDTYPE = 5
_V4_PSDFIXED = 0
_V4_COUNTERS_MASK = 1
_V4_DRIVES_MASK = 0
_V4_ENCODERS_MASK = 0
_2THETACOUNTS = 1
; 2THETA	Cnt2_D1
0.000000	662
5.000000	668.667
10	662
15	620
20	639.333
25	576
30	566
35	539.333
40	501.333
45	512.667
50	498
55	514
60	462.667
65	437.333
70	468.667
75	494
80	446
85	476
90	462
95	440
100	431.333
105	477.333
110	472.667
115	461.333
120	506
125	482
130	518
135	530.667
140	549.333
145	534
150	582
155	536
160	582
165	574
170	648
175	663.333
180	688
185	675.333
190	644
195	605.333
200	576.667
205	595.333
210	552.667
215	532.667
220	522.667
225	586
230	568.667
235	592.667
240	542.667
245	558.667
250	624
255	552
260	635.333
265	589.333
270	578.667
275	635.333
280	556
285	584
290	547.333
295	571.333
300	554.667
305	580.667
310	522
315	576.667
320	517.333
325	562.667
330	546
335	573.333
340	602
345	672
350	652.667
355	673.333

; Data for range 11
_DRIVE = COUPLED
_STEPTIME = 1.5
_STEPSIZE = 5
_STEPMODE = C
_START = 0
_THETA = 15.9545
_2THETA = 31.909
_KHI = 50
_PHI = 0
_X = -0.00002
_Y = 0
_Z = -0.061992
_DETECTORSLIT = out
_TIMESTARTED = 1138.772
_KV = 40
_MA = 40
_RANGE_WL = 1.5406
_3DPLANE = 0
_V4_PSD2THETA = 9999
_V4_PSDCHANNEL1 = 0
_V4_PSDAPERTURE = 14.325
_V4_PSDTYPE = 5
_V4_PSDFIXED = 0
_V4_COUNTERS_MASK = 1
_V4_DRIVES_MASK = 0
_V4_ENCODERS_MASK = 0
_2THETACOUNTS = 1
; 2THETA	Cnt2_D1
0.000000	762
5.000000	754.667
10	784.667
15	749.333
20	727.333
25	678.667
30	682
35	664.667
40	633.333
45	580
50	606
55	570
60	578.667
65	558.667
70	600.667
75	508.667
80	495.333
85	548.667
90	552
95	514
100	534
105	556
110	585.333
115	562.667
120	547.333
125	580.667
130	588
135	636.667
140	657.333
145	605.333
150	650.667
155	686
160	705.333
165	754.667
170	733.333
175	831.333
180	809.333
185	788
190	772.667
195	700.667
200	711.333
205	706.667
210	642.667
215	600.667
220	705.333
225	649.333
230	636.667
235	699.333
240	678.667
245	645.333
250	608
255	684.667
260	685.333
265	653.333
270	686.667
275	716
280	608
285	647.333
290	656.667
295	705.333
300	700.667
305	686
310	568.667
315	653.333
320	634.667
325	661.333
330	668
335	655.333
340	697.333
345	736
350	808.667
355	818

; Data for range 12
_DRIVE = COUPLED
_STEPTIME = 1.5
_STEPSIZE = 5
_STEPMODE = C
_START = 0
_THETA = 15.9545
_2THETA = 31.909
_KHI = 55
_PHI = 0
_X = -0.00002
_Y = 0
_Z = -0.061992
_DETECTORSLIT = out
_TIMESTARTED = 1252.387
_KV = 40
_MA = 40
_RANGE_WL = 1.5406
_3DPLANE = 0
_V4_PSD2THETA = 9999
_V4_PSDCHANNEL1 = 0
_V4_PSDAPERTURE = 14.325
_V4_PSDTYPE = 5
_V4_PSDFIXED = 0
_V4_COUNTERS_MASK = 1
_V4_DRIVES_MASK = 0
_V4_ENCODERS_MASK = 0
_2THETACOUNTS = 1
; 2THETA	Cnt2_D1
0.000000	937.333
5.000000	879.333
10	890
15	898.667
20	845.333
25	853.333
30	763.333
35	781.333
40	752
45	748
50	752
55	676.667
60	720
65	743.333
70	746
75	706
80	783.333
85	726.667
90	741.333
95	730
100	700.667
105	724.667
110	748
115	740.667
120	722
125	816.667
130	769.333
135	760
140	821.333
145	771.333
150	800
155	810.667
160	839.333
165	880
170	944
175	1021.33
180	918.667
185	983.333
190	945.333
195	942.667
200	898
205	812.667
210	805.333
215	770
220	825.333
225	802.667
230	772
235	877.333
240	832
245	799.333
250	867.333
255	844
260	750
265	753.333
270	816
275	794.667
280	794
285	788
290	815.333
295	802
300	834.667
305	896
310	809.333
315	789.333
320	823.333
325	752
330	784.667
335	830
340	834
345	857.333
350	894
355	928

; Data for range 13
_DRIVE = COUPLED
_STEPTIME = 1.5
_STEPSIZE = 5
_STEPMODE = C
_START = 0
_THETA = 15.9545
_2THETA = 31.909
_KHI = 60
_PHI = 0
_X = -0.00002
_Y = 0
_Z = -0.061992
_DETECTORSLIT = out
_TIMESTARTED = 1366.158
_KV = 40
_MA = 40
_RANGE_WL = 1.5406
_3DPLANE = 0
_V4_PSD2THETA = 9999
_V4_PSDCHANNEL1 = 0
_V4_PSDAPERTURE = 14.325
_V4_PSDTYPE = 5
_V4_PSDFIXED = 0
_V4_COUNTERS_MASK = 1
_V4_DRIVES_MASK = 0
_V4_ENCODERS_MASK = 0
_2THETACOUNTS = 1
; 2THETA	Cnt2_D1
0.000000	1091.33
5.000000	984
10	1011.33
15	948.667
20	1016
25	974
30	1001.33
35	1017.33
40	1034
45	949.333
50	987.333
55	1062
60	999.333
65	982
70	1019.33
75	994.667
80	1052
85	940
90	986
95	953.333
100	992.667
105	1011.33
110	1070.67
115	994
120	975.333
125	981.333
130	1031.33
135	966
140	1044
145	929.333
150	958
155	994
160	1007.33
165	1080
170	1049.33
175	1082
180	1150.67
185	1146
190	1122
195	1097.33
200	996.667
205	1050
210	1011.33
215	1050.67
220	1116.67
225	1066.67
230	980
235	1130
240	1068.67
245	1036.67
250	1010
255	1038
260	997.333
265	957.333
270	1019.33
275	997.333
280	997.333
285	1029.33
290	1006
295	1064.67
300	1070.67
305	1050.67
310	1015.33
315	982
320	1010
325	1048
330	1022
335	1045.33
340	986
345	1016
350	1076
355	1158

; Data for range 14
_DRIVE = COUPLED
_STEPTIME = 1.5
_STEPSIZE = 5
_STEPMODE = C
_START = 0
_THETA = 15.9545
_2THETA = 31.909
_KHI = 65
_PHI = 0
_X = -0.00002
_Y = 0
_Z = -0.061992
_DETECTORSLIT = out
_TIMESTARTED = 1479.742
_KV = 40
_MA = 40
_RANGE_WL = 1.5406
_3DPLANE = 0
_V4_PSD2THETA = 9999
_V4_PSDCHANNEL1 = 0
_V4_PSDAPERTURE = 14.325
_V4_PSDTYPE = 5
_V4_PSDFIXED = 0
_V4_COUNTERS_MASK = 1
_V4_DRIVES_MASK = 0
_V4_ENCODERS_MASK = 0
_2THETACOUNTS = 1
; 2THETA	Cnt2_D1
0.000000	1265.33
5.000000	1306.67
10	1220.67
15	1222.67
20	1147.33
25	1110.67
30	1171.33
35	1128
40	1208.67
45	1150
50	1255.33
55	1267.33
60	1266.67
65	1244
70	1369.33
75	1306.67
80	1317.33
85	1277.33
90	1226
95	1343.33
100	1329.33
105	1306
110	1371.33
115	1408.67
120	1317.33
125	1259.33
130	1176.67
135	1124
140	1251.33
145	1136
150	1162.67
155	1203.33
160	1168.67
165	1209.33
170	1188
175	1244.67
180	1218
185	1318.67
190	1302
195	1198
200	1294
205	1129.33
210	1228.67
215	1212.67
220	1255.33
225	1228.67
230	1290.67
235	1260
240	1328
245	1274.67
250	1193.33
255	1215.33
260	1147.33
265	1183.33
270	1140
275	1152
280	1274
285	1286.67
290	1310
295	1343.33
300	1273.33
305	1293.33
310	1306.67
315	1219.33
320	1277.33
325	1182.67
330	1220
335	1210.67
340	1210
345	1212
350	1253.33
355	1264.67

; Data for range 15
_DRIVE = COUPLED
_STEPTIME = 1.5
_STEPSIZE = 5
_STEPMODE = C
_START = 0
_THETA = 15.9545
_2THETA = 31.909
_KHI = 70
_PHI = 0
_X = -0.00002
_Y = 0
_Z = -0.061992
_DETECTORSLIT = out
_TIMESTARTED = 1593.357
_KV = 40
_MA = 40
_RANGE_WL = 1.5406
_3DPLANE = 0
_V4_PSD2THETA = 9999
_V4_PSDCHANNEL1 = 0
_V4_PSDAPERTURE = 14.325
_V4_PSDTYPE = 5
_V4_PSDFIXED = 0
_V4_COUNTERS_MASK = 1
_V4_DRIVES_MASK = 0
_V4_ENCODERS_MASK = 0
_2THETACOUNTS = 1
; 2THETA	Cnt2_D1
0.000000	1456.67
5.000000	1470.67
10	1369.33
15	1298.67
20	1294.67
25	1261.33
30	1205.33
35	1265.33
40	1302.67
45	1326.67
50	1380.67
55	1426.67
60	1532.67
65	1515.33
70	1605.33
75	1542
80	1464
85	1483.33
90	1500
95	1504
100	1622.67
105	1570
110	1553.33
115	1589.33
120	1541.33
125	1436.67
130	1410.67
135	1395.33
140	1293.33
145	1366.67
150	1264.67
155	1351.33
160	1376.67
165	1368.67
170	1432.67
175	1491.33
180	1446
185	1325.33
190	1330
195	1288.67
200	1314.67
205	1257.33
210	1288.67
215	1284
220	1377.33
225	1343.33
230	1442
235	1452.67
240	1368.67
245	1428
250	1324.67
255	1272
260	1282.67
265	1250.67
270	1220
275	1246
280	1333.33
285	1476
290	1532
295	1632
300	1590
305	1580
310	1560
315	1482
320	1464
325	1366
330	1472.67
335	1341.33
340	1336
345	1339.33
350	1509.33
355	1349.33

; Data for range 16
_DRIVE = COUPLED
_STEPTIME = 1.5
_STEPSIZE = 5
_STEPMODE = C
_START = 0
_THETA = 15.9545
_2THETA = 31.909
_KHI = 75
_PHI = 0
_X = -0.00002
_Y = 0
_Z = -0.061992
_DETECTORSLIT = out
_TIMESTARTED = 1707.018
_KV = 40
_MA = 40
_RANGE_WL = 1.5406
_3DPLANE = 0
_V4_PSD2THETA = 9999
_V4_PSDCHANNEL1 = 0
_V4_PSDAPERTURE = 14.325
_V4_PSDTYPE = 5
_V4_PSDFIXED = 0
_V4_COUNTERS_MASK = 1
_V4_DRIVES_MASK = 0
_V4_ENCODERS_MASK = 0
_2THETACOUNTS = 1
; 2THETA	Cnt2_D1
0.000000	1512.67
5.000000	1547.33
10	1433.33
15	1408
20	1335.33
25	1221.33
30	1169.33
35	1087.33
40	1154
45	1185.33
50	1271.33
55	1350.67
60	1424.67
65	1422.67
70	1486
75	1476.67
80	1444
85	1388.67
90	1404.67
95	1462.67
100	1440
105	1492.67
110	1554.67
115	1624.67
120	1553.33
125	1484
130	1430
135	1429.33
140	1408.67
145	1366
150	1326
155	1360.67
160	1389.33
165	1468
170	1476.67
175	1480
180	1487.33
185	1426
190	1361.33
195	1407.33
200	1285.33
205	1214.67
210	1228
215	1232.67
220	1226
225	1219.33
230	1220.67
235	1350.67
240	1384
245	1284.67
250	1308.67
255	1222
260	1196
265	1086.67
270	1105.33
275	1131.33
280	1237.33
285	1286
290	1408.67
295	1496.67
300	1579.33
305	1573.33
310	1582
315	1522.67
320	1453.33
325	1402
330	1412.67
335	1375.33
340	1292
345	1436
350	1390.67
355	1402.67

; Data for range 17
_DRIVE = COUPLED
_STEPTIME = 1.5
_STEPSIZE = 5
_STEPMODE = C
_START = 0
_THETA = 15.9545
_2THETA = 31.909
_KHI = 80
_PHI = 0
_X = -0.00002
_Y = 0
_Z = -0.061992
_DETECTORSLIT = out
_TIMESTARTED = 1820.665
_KV = 40
_MA = 40
_RANGE_WL = 1.5406
_3DPLANE = 0
_V4_PSD2THETA = 9999
_V4_PSDCHANNEL1 = 0
_V4_PSDAPERTURE = 14.325
_V4_PSDTYPE = 5
_V4_PSDFIXED = 0
_V4_COUNTERS_MASK = 1
_V4_DRIVES_MASK = 0
_V4_ENCODERS_MASK = 0
_2THETACOUNTS = 1
; 2THETA	Cnt2_D1
0.000000	1186.67
5.000000	1240
10	1229.33
15	1160
20	1062.67
25	923.333
30	880.667
35	865.333
40	870
45	920.667
50	921.333
55	922.667
60	833.333
65	774
70	734.667
75	660
80	677.333
85	665.333
90	672.667
95	710.667
100	715.333
105	793.333
110	779.333
115	813.333
120	914
125	906.667
130	866.667
135	909.333
140	921.333
145	897.333
150	894
155	996.667
160	1095.33
165	1211.33
170	1221.33
175	1172
180	1316
185	1204.67
190	1160
195	1144.67
200	1020
205	932
210	957.333
215	938
220	923.333
225	938
230	914
235	861.333
240	844
245	777.333
250	701.333
255	660
260	574
265	569.333
270	571.333
275	641.333
280	653.333
285	697.333
290	771.333
295	836.667
300	844.667
305	866.667
310	922.667
315	859.333
320	918
325	857.333
330	910.667
335	960
340	1077.33
345	1034
350	1121.33
355	1150

; Data for range 18
_DRIVE = COUPLED
_STEPTIME = 1.5
_STEPSIZE = 5
_STEPMODE = C
_START = 0
_THETA = 15.9545
_2THETA = 31.909
_KHI = 85
_PHI = 0
_X = -0.00002
_Y = 0
_Z = -0.061992
_DETECTORSLIT = out
_TIMESTARTED = 1934.295
_KV = 40
_MA = 40
_RANGE_WL = 1.5406
_3DPLANE = 0
_V4_PSD2THETA = 9999
_V4_PSDCHANNEL1 = 0
_V4_PSDAPERTURE = 14.325
_V4_PSDTYPE = 5
_V4_PSDFIXED = 0
_V4_COUNTERS_MASK = 1
_V4_DRIVES_MASK = 0
_V4_ENCODERS_MASK = 0
_2THETACOUNTS = 1
; 2THETA	Cnt2_D1
0.000000	614.667
5.000000	602
10	599.333
15	682
20	481.333
25	80.6667
30	74.6667
35	60
40	42.6667
45	46.6667
50	38
55	33.3333
60	34
65	33.3333
70	26
75	48.6667
80	30
85	38
90	38.6667
95	26
100	28
105	32.6667
110	30
115	19.3333
120	31.3333
125	74.6667
130	230.667
135	244.667
140	283.333
145	307.333
150	310.667
155	380
160	488
165	538.667
170	572
175	618.667
180	633.333
185	630
190	642
195	634
200	405.333
205	92
210	62.6667
215	51.3333
220	35.3333
225	40
230	36
235	28
240	42.6667
245	35.3333
250	45.3333
255	48.6667
260	37.3333
265	36
270	31.3333
275	26
280	30
285	32.6667
290	30.6667
295	16
300	28.6667
305	32.6667
310	178.667
315	189.333
320	176
325	239.333
330	251.333
335	292
340	397.333
345	470
350	507.333
355	542.667

; Data for range 19
_DRIVE = COUPLED
_STEPTIME = 1.5
_STEPSIZE = 5
_STEPMODE = C
_START = 0
_THETA = 17.396
_2THETA = 34.792
_KHI = 0
_PHI = 0
_X = -0.00002
_Y = 0
_Z = -0.061992
_DETECTORSLIT = out
_TIMESTARTED = 2048.16
_KV = 40
_MA = 40
_RANGE_WL = 1.5406
_3DPLANE = 0
_V4_PSD2THETA = 9999
_V4_PSDCHANNEL1 = 0
_V4_PSDAPERTURE = 14.325
_V4_PSDTYPE = 5
_V4_PSDFIXED = 0
_V4_COUNTERS_MASK = 1
_V4_DRIVES_MASK = 0
_V4_ENCODERS_MASK = 0
_2THETACOUNTS = 1
; 2THETA	Cnt2_D1
0.000000	5721.33
5.000000	5390.67
10	5629.33
15	5301.33
20	5891.33
25	5780
30	5554.67
35	5431.33
40	5292.67
45	5848.67
50	6330
55	7058.67
60	7093.33
65	7088
70	7146.67
75	7398
80	6910
85	6302.67
90	5960.67
95	5807.33
100	5877.33
105	6032
110	5817.33
115	5642
120	6106.67
125	6503.33
130	6421.33
135	6132
140	5562.67
145	5362
150	5376
155	5520.67
160	5760
165	5998
170	5722
175	5112.67
180	4958.67
185	5208
190	5369.33
195	5420.67
200	5790
205	5617.33
210	5735.33
215	5618
220	5072
225	5266.67
230	5818
235	6324.67
240	6332
245	6583.33
250	7011.33
255	7202
260	7017.33
265	6183.33
270	5938.67
275	6497.33
280	6754.67
285	6659.33
290	6226.67
295	6313.33
300	6890
305	6738.67
310	6523.33
315	5998.67
320	5529.33
325	5611.33
330	5864.67
335	5808
340	5704
345	5680
350	5945.33
355	5998

; Data for range 20
_DRIVE = COUPLED
_STEPTIME = 1.5
_STEPSIZE = 5
_STEPMODE = C
_START = 0
_THETA = 17.396
_2THETA = 34.792
_KHI = 5
_PHI = 0
_X = -0.00002
_Y = 0
_Z = -0.061992
_DETECTORSLIT = out
_TIMESTARTED = 2188.467
_KV = 40
_MA = 40
_RANGE_WL = 1.5406
_3DPLANE = 0
_V4_PSD2THETA = 9999
_V4_PSDCHANNEL1 = 0
_V4_PSDAPERTURE = 14.325
_V4_PSDTYPE = 5
_V4_PSDFIXED = 0
_V4_COUNTERS_MASK = 1
_V4_DRIVES_MASK = 0
_V4_ENCODERS_MASK = 0
_2THETACOUNTS = 1
; 2THETA	Cnt2_D1
0.000000	6419.33
5.000000	5782
10	6051.33
15	7141.33
20	6401.33
25	5669.33
30	5859.33
35	6601.33
40	5436.67
45	6290
50	6423.33
55	6105.33
60	6150.67
65	5730.67
70	5577.33
75	6039.33
80	7402.67
85	5717.33
90	5790.67
95	6064
100	4918.67
105	4172.67
110	4332
115	5244
120	5422
125	6206
130	6339.33
135	5902
140	5090
145	5644
150	5361.33
155	4803.33
160	5827.33
165	6016.67
170	6303.33
175	5999.33
180	5494.67
185	5447.33
190	4246
195	5993.33
200	5833.33
205	4818
210	4372.67
215	5310.67
220	5544
225	5737.33
230	5058
235	4964.67
240	5542.67
245	7201.33
250	6996.67
255	6168
260	6256.67
265	6087.33
270	6304
275	7687.33
280	7802.67
285	6383.33
290	5502.67
295	5403.33
300	5709.33
305	5764.67
310	6020.67
315	5526
320	6246
325	6274
330	5497.33
335	6676.67
340	5994
345	5985.33
350	6324
355	6758.67

; Data for range 21
_DRIVE = COUPLED
_STEPTIME = 1.5
_STEPSIZE = 5
_STEPMODE = C
_START = 0
_THETA = 17.396
_2THETA = 34.792
_KHI = 10
_PHI = 0
_X = -0.00002
_Y = 0
_Z = -0.061992
_DETECTORSLIT = out
_TIMESTARTED = 2302.035
_KV = 40
_MA = 40
_RANGE_WL = 1.5406
_3DPLANE = 0
_V4_PSD2THETA = 9999
_V4_PSDCHANNEL1 = 0
_V4_PSDAPERTURE = 14.325
_V4_PSDTYPE = 5
_V4_PSDFIXED = 0
_V4_COUNTERS_MASK = 1
_V4_DRIVES_MASK = 0
_V4_ENCODERS_MASK = 0
_2THETACOUNTS = 1
; 2THETA	Cnt2_D1
0.000000	6070.67
5.000000	6715.33
10	6604
15	6194
20	5844
25	5362.67
30	5792.67
35	6358
40	7356
45	5048
50	5112.67
55	5894.67
60	5892
65	5103.33
70	5704
75	5291.33
80	5230
85	5640.67
90	5008.67
95	4919.33
100	5180
105	5013.33
110	4604
115	5228
120	4327.33
125	4926.67
130	5538.67
135	5729.33
140	5600.67
145	5328.67
150	4723.33
155	4778
160	4908.67
165	5320
170	5188.67
175	4812.67
180	5000.67
185	4726.67
190	5124.67
195	5715.33
200	5184
205	5350.67
210	5680.67
215	5346.67
220	5519.33
225	5026
230	5404.67
235	5839.33
240	5152
245	4626
250	4496
255	4835.33
260	4758
265	6070
270	5604.67
275	5867.33
280	5657.33
285	5919.33
290	5563.33
295	5616.67
300	5745.33
305	6824
310	6309.33
315	5943.33
320	6708.67
325	5472.67
330	5108.67
335	6402
340	5990.67
345	5799.33
350	7298
355	6127.33

; Data for range 22
_DRIVE = COUPLED
_STEPTIME = 1.5
_STEPSIZE = 5
_STEPMODE = C
_START = 0
_THETA = 17.396
_2THETA = 34.792
_KHI = 15
_PHI = 0
_X = -0.00002
_Y = 0
_Z = -0.061992
_DETECTORSLIT = out
_TIMESTARTED = 2415.729
_KV = 40
_MA = 40
_RANGE_WL = 1.5406
_3DPLANE = 0
_V4_PSD2THETA = 9999
_V4_PSDCHANNEL1 = 0
_V4_PSDAPERTURE = 14.325
_V4_PSDTYPE = 5
_V4_PSDFIXED = 0
_V4_COUNTERS_MASK = 1
_V4_DRIVES_MASK = 0
_V4_ENCODERS_MASK = 0
_2THETACOUNTS = 1
; 2THETA	Cnt2_D1
0.000000	5837.33
5.000000	5480.67
10	5634.67
15	6273.33
20	6109.33
25	6236
30	5068.67
35	5553.33
40	5323.33
45	5088
50	4571.33
55	4504
60	4545.33
65	4634.67
70	4560.67
75	4389.33
80	4415.33
85	4328.67
90	4399.33
95	5084
100	4993.33
105	4134.67
110	4766
115	4334
120	3994.67
125	4381.33
130	4403.33
135	4704.67
140	4469.33
145	4976.67
150	4438
155	4459.33
160	4332.67
165	4514
170	4702.67
175	4630.67
180	4638
185	4680.67
190	4951.33
195	5178.67
200	4841.33
205	4731.33
210	4886
215	4182.67
220	3878.67
225	4547.33
230	4198.67
235	4011.33
240	4628.67
245	5280
250	5341.33
255	4742.67
260	4315.33
265	4291.33
270	5031.33
275	5012
280	5218
285	4878
290	4861.33
295	5195.33
300	5506
305	5224
310	4648
315	4844.67
320	5826
325	5534.67
330	5728.67
335	6106.67
340	5534.67
345	5094
350	5876
355	6301.33

; Data for range 23
_DRIVE = COUPLED
_STEPTIME = 1.5
_STEPSIZE = 5
_STEPMODE = C
_START = 0
_THETA = 17.396
_2THETA = 34.792
_KHI = 20
_PHI = 0
_X = -0.00002
_Y = 0
_Z = -0.061992
_DETECTORSLIT = out
_TIMESTARTED = 2529.328
_KV = 40
_MA = 40
_RANGE_WL = 1.5406
_3DPLANE = 0
_V4_PSD2THETA = 9999
_V4_PSDCHANNEL1 = 0
_V4_PSDAPERTURE = 14.325
_V4_PSDTYPE = 5
_V4_PSDFIXED = 0
_V4_COUNTERS_MASK = 1
_V4_DRIVES_MASK = 0
_V4_ENCODERS_MASK = 0
_2THETACOUNTS = 1
; 2THETA	Cnt2_D1
0.000000	5312
5.000000	5323.33
10	5168
15	4616.67
20	5140
25	4829.33
30	4282
35	4734
40	4870
45	4922
50	4454.67
55	3966
60	3780
65	3794.67
70	3756
75	3570
80	3532.67
85	3821.33
90	3557.33
95	3688
100	4048
105	3877.33
110	3110.67
115	3669.33
120	3628
125	3697.33
130	3834.67
135	3848
140	3554.67
145	3840
150	4138
155	3936
160	4179.33
165	3888.67
170	4088
175	3802.67
180	4717.33
185	4425.33
190	4154.67
195	4832
200	3699.33
205	4460.67
210	3946
215	4160.67
220	4202.67
225	4376
230	3563.33
235	4312.67
240	4476.67
245	4706.67
250	4855.33
255	5010
260	4534
265	4815.33
270	5108
275	4618.67
280	5130
285	4533.33
290	4392.67
295	5220
300	4458
305	4498
310	4571.33
315	4887.33
320	5082
325	5100.67
330	5102
335	5178
340	5136.67
345	5079.33
350	5226
355	5295.33

; Data for range 24
_DRIVE = COUPLED
_STEPTIME = 1.5
_STEPSIZE = 5
_STEPMODE = C
_START = 0
_THETA = 17.396
_2THETA = 34.792
_KHI = 25
_PHI = 0
_X = -0.00002
_Y = 0
_Z = -0.061992
_DETECTORSLIT = out
_TIMESTARTED = 2642.943
_KV = 40
_MA = 40
_RANGE_WL = 1.5406
_3DPLANE = 0
_V4_PSD2THETA = 9999
_V4_PSDCHANNEL1 = 0
_V4_PSDAPERTURE = 14.325
_V4_PSDTYPE = 5
_V4_PSDFIXED = 0
_V4_COUNTERS_MASK = 1
_V4_DRIVES_MASK = 0
_V4_ENCODERS_MASK = 0
_2THETACOUNTS = 1
; 2THETA	Cnt2_D1
0.000000	4645.33
5.000000	4406.67
10	4028
15	4391.33
20	4536
25	4333.33
30	3686
35	3395.33
40	3781.33
45	3075.33
50	3235.33
55	3350.67
60	3268.67
65	3573.33
70	2958.67
75	3262.67
80	3270
85	2949.33
90	2386
95	2556.67
100	2830
105	2629.33
110	2531.33
115	2954.67
120	2734
125	2737.33
130	2705.33
135	2554
140	2694.67
145	2907.33
150	3162
155	3228
160	3604
165	3879.33
170	3714.67
175	3911.33
180	3546.67
185	3608.67
190	3492
195	3089.33
200	3332
205	3288.67
210	3848
215	3387.33
220	3093.33
225	3445.33
230	3227.33
235	3133.33
240	3453.33
245	3426.67
250	3578
255	3751.33
260	3346.67
265	3663.33
270	3631.33
275	4014.67
280	3790.67
285	3548.67
290	3521.33
295	3744
300	3579.33
305	3862.67
310	3899.33
315	3878.67
320	3936
325	4029.33
330	3863.33
335	4703.33
340	3988.67
345	4172
350	4650
355	4545.33

; Data for range 25
_DRIVE = COUPLED
_STEPTIME = 1.5
_STEPSIZE = 5
_STEPMODE = C
_START = 0
_THETA = 17.396
_2THETA = 34.792
_KHI = 30
_PHI = 0
_X = -0.00002
_Y = 0
_Z = -0.061992
_DETECTORSLIT = out
_TIMESTARTED = 2756.527
_KV = 40
_MA = 40
_RANGE_WL = 1.5406
_3DPLANE = 0
_V4_PSD2THETA = 9999
_V4_PSDCHANNEL1 = 0
_V4_PSDAPERTURE = 14.325
_V4_PSDTYPE = 5
_V4_PSDFIXED = 0
_V4_COUNTERS_MASK = 1
_V4_DRIVES_MASK = 0
_V4_ENCODERS_MASK = 0
_2THETACOUNTS = 1
; 2THETA	Cnt2_D1
0.000000	4214.67
5.000000	3966.67
10	3506.67
15	3326.67
20	3382
25	3024.67
30	3138.67
35	2888
40	2220
45	2332.67
50	2079.33
55	2283.33
60	2161.33
65	2403.33
70	2110.67
75	1918
80	1902
85	1841.33
90	1749.33
95	1887.33
100	1738.67
105	1749.33
110	1620
115	1794.67
120	1813.33
125	1759.33
130	1801.33
135	1765.33
140	2400
145	2530
150	2543.33
155	2735.33
160	2918
165	2996.67
170	2846.67
175	2825.33
180	2974.67
185	3044.67
190	2956
195	2780.67
200	2840
205	2971.33
210	2688
215	2424
220	2442
225	2256
230	2110.67
235	2117.33
240	2044.67
245	2234
250	2352
255	2186
260	2472.67
265	2518.67
270	2289.33
275	2432
280	2170
285	2260.67
290	2560.67
295	2488
300	2800
305	2592
310	2763.33
315	3036.67
320	2809.33
325	3202
330	3210
335	3738.67
340	3610
345	3659.33
350	3774
355	3818.67

; Data for range 26
_DRIVE = COUPLED
_STEPTIME = 1.5
_STEPSIZE = 5
_STEPMODE = C
_START = 0
_THETA = 17.396
_2THETA = 34.792
_KHI = 35
_PHI = 0
_X = -0.00002
_Y = 0
_Z = -0.061992
_DETECTORSLIT = out
_TIMESTARTED = 2870.267
_KV = 40
_MA = 40
_RANGE_WL = 1.5406
_3DPLANE = 0
_V4_PSD2THETA = 9999
_V4_PSDCHANNEL1 = 0
_V4_PSDAPERTURE = 14.325
_V4_PSDTYPE = 5
_V4_PSDFIXED = 0
_V4_COUNTERS_MASK = 1
_V4_DRIVES_MASK = 0
_V4_ENCODERS_MASK = 0
_2THETACOUNTS = 1
; 2THETA	Cnt2_D1
0.000000	3061.33
5.000000	3193.33
10	3035.33
15	2856
20	2568
25	2370
30	2217.33
35	1736.67
40	1651.33
45	1561.33
50	1518
55	1638.67
60	1456.67
65	1490
70	1395.33
75	1615.33
80	1375.33
85	1281.33
90	1140
95	1214
100	1290
105	1203.33
110	1096
115	1140
120	1373.33
125	1173.33
130	1277.33
135	1350.67
140	1547.33
145	1533.33
150	1812
155	1743.33
160	2256
165	2063.33
170	2284.67
175	2820
180	2688
185	2708
190	2558
195	2640
200	2210.67
205	1950
210	2136.67
215	1909.33
220	1645.33
225	1615.33
230	1380
235	1358.67
240	1234
245	1410.67
250	1166.67
255	1331.33
260	1240.67
265	1390
270	1299.33
275	1362
280	1595.33
285	1190
290	1245.33
295	1369.33
300	1468.67
305	1598
310	1698
315	1518.67
320	1952
325	2286.67
330	2355.33
335	2478
340	2973.33
345	2776
350	3314.67
355	3277.33

; Data for range 27
_DRIVE = COUPLED
_STEPTIME = 1.5
_STEPSIZE = 5
_STEPMODE = C
_START = 0
_THETA = 17.396
_2THETA = 34.792
_KHI = 40
_PHI = 0
_X = -0.00002
_Y = 0
_Z = -0.061992
_DETECTORSLIT = out
_TIMESTARTED = 2983.85
_KV = 40
_MA = 40
_RANGE_WL = 1.5406
_3DPLANE = 0
_V4_PSD2THETA = 9999
_V4_PSDCHANNEL1 = 0
_V4_PSDAPERTURE = 14.325
_V4_PSDTYPE = 5
_V4_PSDFIXED = 0
_V4_COUNTERS_MASK = 1
_V4_DRIVES_MASK = 0
_V4_ENCODERS_MASK = 0
_2THETACOUNTS = 1
; 2THETA	Cnt2_D1
0.000000	2441.33
5.000000	2636
10	2184.67
15	1983.33
20	1766.67
25	1516
30	1366
35	1432.67
40	1186
45	965.333
50	948.667
55	836.667
60	926
65	952.667
70	830.667
75	866
80	974.667
85	851.333
90	937.333
95	891.333
100	906
105	916
110	778.667
115	760.667
120	942.667
125	768
130	843.333
135	850
140	953.333
145	1179.33
150	1263.33
155	1419.33
160	1571.33
165	1756
170	2166.67
175	2312.67
180	2098
185	2134
190	2173.33
195	2146.67
200	1710.67
205	1762
210	1340
215	1075.33
220	1190
225	798
230	938.667
235	805.333
240	848.667
245	817.333
250	800.667
255	837.333
260	799.333
265	752.667
270	762
275	801.333
280	718.667
285	792.667
290	697.333
295	972.667
300	836
305	884
310	958.667
315	1237.33
320	1365.33
325	1617.33
330	1650
335	1884
340	2070
345	2222.67
350	2420.67
355	2608

; Data for range 28
_DRIVE = COUPLED
_STEPTIME = 1.5
_STEPSIZE = 5
_STEPMODE = C
_START = 0
_THETA = 17.396
_2THETA = 34.792
_KHI = 45
_PHI = 0
_X = -0.00002
_Y = 0
_Z = -0.061992
_DETECTORSLIT = out
_TIMESTARTED = 3097.45
_KV = 40
_MA = 40
_RANGE_WL = 1.5406
_3DPLANE = 0
_V4_PSD2THETA = 9999
_V4_PSDCHANNEL1 = 0
_V4_PSDAPERTURE = 14.325
_V4_PSDTYPE = 5
_V4_PSDFIXED = 0
_V4_COUNTERS_MASK = 1
_V4_DRIVES_MASK = 0
_V4_ENCODERS_MASK = 0
_2THETACOUNTS = 1
; 2THETA	Cnt2_D1
0.000000	1926.67
5.000000	2090.67
10	1856
15	1325.33
20	1292.67
25	1106.67
30	957.333
35	864.667
40	808
45	690.667
50	720.667
55	723.333
60	696.667
65	767.333
70	796.667
75	732
80	779.333
85	784
90	803.333
95	784
100	848.667
105	745.333
110	706.667
115	627.333
120	690
125	630
130	604
135	677.333
140	718.667
145	844.667
150	1003.33
155	1084.67
160	1161.33
165	1638
170	1584
175	1773.33
180	1879.33
185	1832
190	1563.33
195	1485.33
200	1212.67
205	980.667
210	898.667
215	740
220	710.667
225	588.667
230	564
235	626.667
240	580.667
245	538
250	532.667
255	553.333
260	612
265	574
270	528.667
275	534.667
280	513.333
285	562
290	566
295	680.667
300	564
305	647.333
310	702.667
315	732.667
320	852.667
325	858
330	943.333
335	1122.67
340	1442.67
345	1612
350	1794.67
355	1730

; Data for range 29
_DRIVE = COUPLED
_STEPTIME = 1.5
_STEPSIZE = 5
_STEPMODE = C
_START = 0
_THETA = 17.396
_2THETA = 34.792
_KHI = 50
_PHI = 0
_X = -0.00002
_Y = 0
_Z = -0.061992
_DETECTORSLIT = out
_TIMESTARTED = 3211.127
_KV = 40
_MA = 40
_RANGE_WL = 1.5406
_3DPLANE = 0
_V4_PSD2THETA = 9999
_V4_PSDCHANNEL1 = 0
_V4_PSDAPERTURE = 14.325
_V4_PSDTYPE = 5
_V4_PSDFIXED = 0
_V4_COUNTERS_MASK = 1
_V4_DRIVES_MASK = 0
_V4_ENCODERS_MASK = 0
_2THETACOUNTS = 1
; 2THETA	Cnt2_D1
0.000000	1608.67
5.000000	1536.67
10	1296.67
15	1151.33
20	986
25	889.333
30	721.333
35	658.667
40	718.667
45	638.667
50	629.333
55	609.333
60	616
65	749.333
70	734.667
75	780.667
80	854.667
85	900
90	944.667
95	911.333
100	881.333
105	785.333
110	754
115	761.333
120	640.667
125	626
130	631.333
135	592.667
140	591.333
145	662
150	798.667
155	870
160	948.667
165	1177.33
170	1322.67
175	1538
180	1461.33
185	1434
190	1385.33
195	1071.33
200	936
205	856.667
210	667.333
215	632
220	636.667
225	522
230	556
235	504
240	513.333
245	493.333
250	490
255	484
260	508
265	462
270	511.333
275	480.667
280	523.333
285	502
290	481.333
295	500
300	541.333
305	501.333
310	544
315	602.667
320	584
325	635.333
330	791.333
335	902.667
340	1182
345	1234
350	1571.33
355	1664

; Data for range 30
_DRIVE = COUPLED
_STEPTIME = 1.5
_STEPSIZE = 5
_STEPMODE = C
_START = 0
_THETA = 17.396
_2THETA = 34.792
_KHI = 55
_PHI = 0
_X = -0.00002
_Y = 0
_Z = -0.061992
_DETECTORSLIT = out
_TIMESTARTED = 3324.727
_KV = 40
_MA = 40
_RANGE_WL = 1.5406
_3DPLANE = 0
_V4_PSD2THETA = 9999
_V4_PSDCHANNEL1 = 0
_V4_PSDAPERTURE = 14.325
_V4_PSDTYPE = 5
_V4_PSDFIXED = 0
_V4_COUNTERS_MASK = 1
_V4_DRIVES_MASK = 0
_V4_ENCODERS_MASK = 0
_2THETACOUNTS = 1
; 2THETA	Cnt2_D1
0.000000	1403.33
5.000000	1401.33
10	1108.67
15	976.667
20	848
25	790
30	660.667
35	666
40	611.333
45	600.667
50	649.333
55	654.667
60	719.333
65	825.333
70	778.667
75	869.333
80	844.667
85	903.333
90	917.333
95	916.667
100	906.667
105	783.333
110	835.333
115	772
120	675.333
125	605.333
130	608
135	594
140	571.333
145	613.333
150	641.333
155	682.667
160	834
165	998
170	1010.67
175	1326.67
180	1231.33
185	1266.67
190	1117.33
195	938.667
200	851.333
205	734
210	578
215	577.333
220	508.667
225	452
230	478
235	460
240	429.333
245	530
250	492
255	475.333
260	524.667
265	545.333
270	514.667
275	502
280	508.667
285	466.667
290	470
295	496
300	438.667
305	508.667
310	518
315	486.667
320	511.333
325	563.333
330	652.667
335	771.333
340	860.667
345	978
350	1215.33
355	1460

; Data for range 31
_DRIVE = COUPLED
_STEPTIME = 1.5
_STEPSIZE = 5
_STEPMODE = C
_START = 0
_THETA = 17.396
_2THETA = 34.792
_KHI = 60
_PHI = 0
_X = -0.00002
_Y = 0
_Z = -0.061992
_DETECTORSLIT = out
_TIMESTARTED = 3438.357
_KV = 40
_MA = 40
_RANGE_WL = 1.5406
_3DPLANE = 0
_V4_PSD2THETA = 9999
_V4_PSDCHANNEL1 = 0
_V4_PSDAPERTURE = 14.325
_V4_PSDTYPE = 5
_V4_PSDFIXED = 0
_V4_COUNTERS_MASK = 1
_V4_DRIVES_MASK = 0
_V4_ENCODERS_MASK = 0
_2THETACOUNTS = 1
; 2THETA	Cnt2_D1
0.000000	1293.33
5.000000	1119.33
10	968
15	880
20	762
25	712.667
30	607.333
35	616
40	593.333
45	610.667
50	691.333
55	677.333
60	725.333
65	746
70	785.333
75	785.333
80	772
85	775.333
90	782.667
95	734
100	758.667
105	771.333
110	722.667
115	744
120	714.667
125	658
130	586
135	578
140	606.667
145	617.333
150	636.667
155	666
160	793.333
165	908
170	1008.67
175	1100
180	1100
185	1079.33
190	1004.67
195	871.333
200	757.333
205	608
210	568.667
215	554
220	470
225	496.667
230	472
235	515.333
240	512
245	512.667
250	517.333
255	501.333
260	516
265	498
270	520
275	511.333
280	522
285	533.333
290	518
295	559.333
300	537.333
305	486
310	487.333
315	510
320	537.333
325	558.667
330	673.333
335	673.333
340	744
345	873.333
350	1044.67
355	1224

; Data for range 32
_DRIVE = COUPLED
_STEPTIME = 1.5
_STEPSIZE = 5
_STEPMODE = C
_START = 0
_THETA = 17.396
_2THETA = 34.792
_KHI = 65
_PHI = 0
_X = -0.00002
_Y = 0
_Z = -0.061992
_DETECTORSLIT = out
_TIMESTARTED = 3551.926
_KV = 40
_MA = 40
_RANGE_WL = 1.5406
_3DPLANE = 0
_V4_PSD2THETA = 9999
_V4_PSDCHANNEL1 = 0
_V4_PSDAPERTURE = 14.325
_V4_PSDTYPE = 5
_V4_PSDFIXED = 0
_V4_COUNTERS_MASK = 1
_V4_DRIVES_MASK = 0
_V4_ENCODERS_MASK = 0
_2THETACOUNTS = 1
; 2THETA	Cnt2_D1
0.000000	1169.33
5.000000	1120
10	918.667
15	829.333
20	764
25	674.667
30	585.333
35	592
40	639.333
45	646
50	676
55	660.667
60	657.333
65	666.667
70	706
75	678.667
80	680.667
85	610
90	650
95	600
100	645.333
105	619.333
110	650
115	726.667
120	724.667
125	676
130	596
135	624
140	603.333
145	560
150	566.667
155	665.333
160	734
165	800.667
[...]
245	724.667
250	724.667
255	631.333
260	638.667
265	633.333
270	611.333
275	648
280	615.333
285	578
290	631.333
295	775.333
300	694
305	613.333
310	656.667
315	644
320	704.667
325	620.667
330	594.667
335	644
340	756.667
345	669.333
350	635.333
355	562.667

; Data for range 39
_DRIVE = COUPLED
_STEPTIME = 1.5
_STEPSIZE = 5
_STEPMODE = C
_START = 0
_THETA = 23.999
_2THETA = 47.998
_KHI = 10
_PHI = 0
_X = -0.00002
_Y = 0
_Z = -0.061992
_DETECTORSLIT = out
_TIMESTARTED = 4375.233
_KV = 40
_MA = 40
_RANGE_WL = 1.5406
_3DPLANE = 0
_V4_PSD2THETA = 9999
_V4_PSDCHANNEL1 = 0
_V4_PSDAPERTURE = 14.325
_V4_PSDTYPE = 5
_V4_PSDFIXED = 0
_V4_COUNTERS_MASK = 1
_V4_DRIVES_MASK = 0
_V4_ENCODERS_MASK = 0
_2THETACOUNTS = 1
; 2THETA	Cnt2_D1
0.000000	702.667
5.000000	777.333
10	664.667
15	827.333
20	810.667
25	696
30	720
35	666
40	710
45	814.667
50	729.333
55	761.333
60	750
65	838.667
70	733.333
75	754.667
80	833.333
85	822.667
90	803.333
95	852.667
100	872
105	750
110	829.333
115	804.667
120	908.667
125	793.333
130	966
135	752.667
140	723.333
145	898
150	780
155	830.667
160	696.667
165	610.667
170	694.667
175	704.667
180	624.667
185	663.333
190	762
195	674
200	868.667
205	910.667
210	733.333
215	790.667
220	683.333
225	642
230	723.333
235	764
240	776
245	904
250	803.333
255	781.333
260	810
265	671.333
270	710.667
275	712.667
280	810
285	754
290	646
295	692.667
300	702
305	614.667
310	760.667
315	902.667
320	756
325	688
330	688
335	750
340	668
345	671.333
350	706
355	716

; Data for range 40
_DRIVE = COUPLED
_STEPTIME = 1.5
_STEPSIZE = 5
_STEPMODE = C
_START = 0
_THETA = 23.999
_2THETA = 47.998
_KHI = 15
_PHI = 0
_X = -0.00002
_Y = 0
_Z = -0.061992
_DETECTORSLIT = out
_TIMESTARTED = 4488.849
_KV = 40
_MA = 40
_RANGE_WL = 1.5406
_3DPLANE = 0
_V4_PSD2THETA = 9999
_V4_PSDCHANNEL1 = 0
_V4_PSDAPERTURE = 14.325
_V4_PSDTYPE = 5
_V4_PSDFIXED = 0
_V4_COUNTERS_MASK = 1
_V4_DRIVES_MASK = 0
_V4_ENCODERS_MASK = 0
_2THETACOUNTS = 1
; 2THETA	Cnt2_D1
0.000000	654
5.000000	779.333
10	795.333
15	725.333
20	738
25	804
30	720
35	882.667
40	861.333
45	704
50	943.333
55	858.667
60	930.667
65	917.333
70	1090.67
75	971.333
80	940
85	1013.33
90	935.333
95	941.333
100	1021.33
105	893.333
110	924
115	908
120	1058.67
125	936.667
130	874
135	956.667
140	911.333
145	882.667
150	814.667
155	796
160	853.333
165	907.333
170	875.333
175	920.667
180	773.333
185	799.333
190	764.667
195	842
200	798
205	779.333
210	762
215	732
220	749.333
225	831.333
230	831.333
235	835.333
240	844.667
245	884.667
250	842.667
255	858.667
260	856
265	756
270	770.667
275	794
280	841.333
285	817.333
290	840
295	794.667
300	816
305	738.667
310	738.667
315	712
320	769.333
325	793.333
330	738.667
335	860.667
340	732.667
345	768.667
350	685.333
355	712.667

; Data for range 41
_DRIVE = COUPLED
_STEPTIME = 1.5
_STEPSIZE = 5
_STEPMODE = C
_START = 0
_THETA = 23.999
_2THETA = 47.998
_KHI = 20
_PHI = 0
_X = -0.00002
_Y = 0
_Z = -0.061992
_DETECTORSLIT = out
_TIMESTARTED = 4602.51
_KV = 40
_MA = 40
_RANGE_WL = 1.5406
_3DPLANE = 0
_V4_PSD2THETA = 9999
_V4_PSDCHANNEL1 = 0
_V4_PSDAPERTURE = 14.325
_V4_PSDTYPE = 5
_V4_PSDFIXED = 0
_V4_COUNTERS_MASK = 1
_V4_DRIVES_MASK = 0
_V4_ENCODERS_MASK = 0
_2THETACOUNTS = 1
; 2THETA	Cnt2_D1
0.000000	712.667
5.000000	939.333
10	822
15	900
20	940
25	893.333
30	944.667
35	1014
40	925.333
45	866.667
50	955.333
55	979.333
60	1040
65	1062
70	1006
75	1024.67
80	1055.33
85	1106
90	1138.67
95	1150.67
100	1196
105	1026.67
110	958.667
115	1034.67
120	1062
125	972
130	1015.33
135	867.333
140	1008
145	923.333
150	892
155	1055.33
160	1002.67
165	866
170	803.333
175	799.333
180	921.333
185	908.667
190	797.333
195	982.667
200	892
205	942
210	922
215	956.667
220	1028.67
225	888
230	939.333
235	973.333
240	986.667
245	1042
250	1074.67
255	963.333
260	880
265	903.333
270	882
275	911.333
280	946.667
285	982
290	910.667
295	746
300	850
305	752
310	730.667
315	832
320	743.333
325	818.667
330	776
335	856.667
340	948
345	744.667
350	810.667
355	800

; Data for range 42
_DRIVE = COUPLED
_STEPTIME = 1.5
_STEPSIZE = 5
_STEPMODE = C
_START = 0
_THETA = 23.999
_2THETA = 47.998
_KHI = 25
_PHI = 0
_X = -0.00002
_Y = 0
_Z = -0.061992
_DETECTORSLIT = out
_TIMESTARTED = 4717.28
_KV = 40
_MA = 40
_RANGE_WL = 1.5406
_3DPLANE = 0
_V4_PSD2THETA = 9999
_V4_PSDCHANNEL1 = 0
_V4_PSDAPERTURE = 14.325
_V4_PSDTYPE = 5
_V4_PSDFIXED = 0
_V4_COUNTERS_MASK = 1
_V4_DRIVES_MASK = 0
_V4_ENCODERS_MASK = 0
_2THETACOUNTS = 1
; 2THETA	Cnt2_D1
0.000000	932
5.000000	890.667
10	868.667
15	918.667
20	968.667
25	1000.67
30	930
35	978.667
40	985.333
45	1020.67
50	967.333
55	1010
60	1076
65	1160
70	1056
75	1192.67
80	1022
85	1131.33
90	1168.67
95	1176
100	1234
105	1122.67
110	1144
115	1098
120	1034
125	1158.67
130	1122.67
135	1008
140	1104.67
145	1017.33
150	1082
155	1144.67
160	1032
165	985.333
170	884.667
175	872.667
180	976
185	1019.33
190	1145.33
195	1007.33
200	973.333
205	976.667
210	969.333
215	940.667
220	991.333
225	996.667
230	1123.33
235	1178
240	962
245	942
250	1076.67
255	1065.33
260	1030
265	988.667
270	1076
275	1116
280	1143.33
285	1064.67
290	970
295	1044
300	1036
305	1054.67
310	1018
315	976
320	944.667
325	904
330	1003.33
335	1048
340	942
345	916.667
350	819.333
355	909.333

; Data for range 43
_DRIVE = COUPLED
_STEPTIME = 1.5
_STEPSIZE = 5
_STEPMODE = C
_START = 0
_THETA = 23.999
_2THETA = 47.998
_KHI = 30
_PHI = 0
_X = -0.00002
_Y = 0
_Z = -0.061992
_DETECTORSLIT = out
_TIMESTARTED = 4830.91
_KV = 40
_MA = 40
_RANGE_WL = 1.5406
_3DPLANE = 0
_V4_PSD2THETA = 9999
_V4_PSDCHANNEL1 = 0
_V4_PSDAPERTURE = 14.325
_V4_PSDTYPE = 5
_V4_PSDFIXED = 0
_V4_COUNTERS_MASK = 1
_V4_DRIVES_MASK = 0
_V4_ENCODERS_MASK = 0
_2THETACOUNTS = 1
; 2THETA	Cnt2_D1
0.000000	941.333
5.000000	1022.67
10	944
15	1010
20	1150.67
25	986.667
30	1062.67
35	1008
40	1060
45	980
50	1054.67
55	1012.67
60	1156
65	1042.67
70	1143.33
75	1066.67
80	1146
85	1095.33
90	1092
95	1051.33
100	1025.33
105	1180
110	1238.67
115	1126
120	1076.67
125	1090
130	1231.33
135	1182.67
140	1158.67
145	1092.67
150	1040
155	1016
160	1020.67
165	998
170	1140.67
175	1003.33
180	980.667
185	1000
190	844.667
195	974
200	981.333
205	974.667
210	1109.33
215	968
220	1122
225	958.667
230	1054
235	1122.67
240	1082.67
245	1199.33
250	1154
255	1158
260	1062
265	1123.33
270	1192
275	1198
280	1060
285	1138.67
290	1182
295	1107.33
300	1094.67
305	1008
310	1116.67
315	963.333
320	974
325	984.667
330	1044.67
335	921.333
340	972
345	992
350	946
355	983.333

; Data for range 44
_DRIVE = COUPLED
_STEPTIME = 1.5
_STEPSIZE = 5
_STEPMODE = C
_START = 0
_THETA = 23.999
_2THETA = 47.998
_KHI = 35
_PHI = 0
_X = -0.00002
_Y = 0
_Z = -0.061992
_DETECTORSLIT = out
_TIMESTARTED = 4944.557
_KV = 40
_MA = 40
_RANGE_WL = 1.5406
_3DPLANE = 0
_V4_PSD2THETA = 9999
_V4_PSDCHANNEL1 = 0
_V4_PSDAPERTURE = 14.325
_V4_PSDTYPE = 5
_V4_PSDFIXED = 0
_V4_COUNTERS_MASK = 1
_V4_DRIVES_MASK = 0
_V4_ENCODERS_MASK = 0
_2THETACOUNTS = 1
; 2THETA	Cnt2_D1
0.000000	1048.67
5.000000	952.667
10	1020.67
15	1066
20	1073.33
25	1042.67
30	928.667
35	1003.33
40	1050
45	1052
50	1017.33
55	1072.67
60	1146.67
65	1039.33
70	1093.33
75	1162.67
80	1146
85	1258.67
90	1066
95	1106.67
100	1120
105	1199.33
110	1182
115	1128.67
120	1134.67
125	1025.33
130	1074
135	1062
140	1006
145	1020.67
150	1120
155	1085.33
160	1078.67
165	1063.33
170	978
175	957.333
180	1088
185	913.333
190	926.667
195	1061.33
200	969.333
205	944
210	983.333
215	1044
220	1126
225	1080
230	1082
235	1170.67
240	1094.67
245	1298
250	1188.67
255	1251.33
260	1172
265	1102
270	1183.33
275	1150.67
280	1132.67
285	1163.33
290	1176.67
295	1050.67
300	1020.67
305	1104.67
310	1022.67
315	1120.67
320	956
325	943.333
330	994.667
335	1030.67
340	896
345	939.333
350	1073.33
355	1006.67

; Data for range 45
_DRIVE = COUPLED
_STEPTIME = 1.5
_STEPSIZE = 5
_STEPMODE = C
_START = 0
_THETA = 23.999
_2THETA = 47.998
_KHI = 40
_PHI = 0
_X = -0.00002
_Y = 0
_Z = -0.061992
_DETECTORSLIT = out
_TIMESTARTED = 5058.125
_KV = 40
_MA = 40
_RANGE_WL = 1.5406
_3DPLANE = 0
_V4_PSD2THETA = 9999
_V4_PSDCHANNEL1 = 0
_V4_PSDAPERTURE = 14.325
_V4_PSDTYPE = 5
_V4_PSDFIXED = 0
_V4_COUNTERS_MASK = 1
_V4_DRIVES_MASK = 0
_V4_ENCODERS_MASK = 0
_2THETACOUNTS = 1
; 2THETA	Cnt2_D1
0.000000	1069.33
5.000000	904.667
10	910
15	1014
20	1038.67
25	1003.33
30	1036
35	1034
40	1059.33
45	1083.33
50	1106.67
55	1221.33
60	1190.67
65	1087.33
70	1088.67
75	1118
80	1206.67
85	1140
90	1182.67
95	1123.33
100	1176
105	1121.33
110	1167.33
115	1121.33
120	1075.33
125	1027.33
130	1076.67
135	942.667
140	1010
145	1044
150	989.333
155	950
160	1088.67
165	1034
170	1099.33
175	1064.67
180	1014.67
185	954
190	1099.33
195	1031.33
200	890.667
205	966
210	856
215	993.333
220	1001.33
225	1070.67
230	1006.67
235	1049.33
240	1055.33
245	1116.67
250	1247.33
255	1090
260	1142.67
265	1146.67
270	1032.67
275	1094
280	1109.33
285	1156.67
290	1128.67
295	1165.33
300	1085.33
305	1104.67
310	1046
315	1243.33
320	1043.33
325	1018.67
330	1046
335	989.333
340	970.667
345	912.667
350	916
355	952.667

; Data for range 46
_DRIVE = COUPLED
_STEPTIME = 1.5
_STEPSIZE = 5
_STEPMODE = C
_START = 0
_THETA = 23.999
_2THETA = 47.998
_KHI = 45
_PHI = 0
_X = -0.00002
_Y = 0
_Z = -0.061992
_DETECTORSLIT = out
_TIMESTARTED = 5171.708
_KV = 40
_MA = 40
_RANGE_WL = 1.5406
_3DPLANE = 0
_V4_PSD2THETA = 9999
_V4_PSDCHANNEL1 = 0
_V4_PSDAPERTURE = 14.325
_V4_PSDTYPE = 5
_V4_PSDFIXED = 0
_V4_COUNTERS_MASK = 1
_V4_DRIVES_MASK = 0
_V4_ENCODERS_MASK = 0
_2THETACOUNTS = 1
; 2THETA	Cnt2_D1
0.000000	983.333
5.000000	999.333
10	1006
15	1024
20	1001.33
25	1016
30	1088.67
35	1010
40	1052.67
45	1131.33
50	1048
55	1067.33
60	1155.33
65	1076
70	1119.33
75	1058.67
80	1149.33
85	1020.67
90	1045.33
95	1027.33
100	1060
105	984.667
110	1061.33
115	1013.33
120	1072
125	1058
130	1085.33
135	1060
140	1005.33
145	995.333
150	928
155	912.667
160	922
165	906
170	942.667
175	888
180	848.667
185	861.333
190	1018.67
195	948
200	845.333
205	836
210	1009.33
215	932.667
220	1050.67
225	952
230	1030.67
235	1098.67
240	1058
245	1015.33
250	1088
255	1055.33
260	1054
265	994.667
270	1065.33
275	1143.33
280	1074.67
285	1030
290	1016
295	1082
300	1151.33
305	1164.67
310	1155.33
315	1086.67
320	1055.33
325	1090
330	992
335	1011.33
340	979.333
345	932
350	1025.33
355	1040.67

; Data for range 47
_DRIVE = COUPLED
_STEPTIME = 1.5
_STEPSIZE = 5
_STEPMODE = C
_START = 0
_THETA = 23.999
_2THETA = 47.998
_KHI = 50
_PHI = 0
_X = -0.00002
_Y = 0
_Z = -0.061992
_DETECTORSLIT = out
_TIMESTARTED = 5285.308
_KV = 40
_MA = 40
_RANGE_WL = 1.5406
_3DPLANE = 0
_V4_PSD2THETA = 9999
_V4_PSDCHANNEL1 = 0
_V4_PSDAPERTURE = 14.325
_V4_PSDTYPE = 5
_V4_PSDFIXED = 0
_V4_COUNTERS_MASK = 1
_V4_DRIVES_MASK = 0
_V4_ENCODERS_MASK = 0
_2THETACOUNTS = 1
; 2THETA	Cnt2_D1
0.000000	1026.67
5.000000	984.667
10	897.333
15	1082.67
20	1010.67
25	989.333
30	1090
35	1048
40	938.667
45	1082
50	1076
55	1041.33
60	1050
65	1104
70	988
75	981.333
80	1006
85	938
90	982
95	849.333
100	948
105	929.333
110	965.333
115	934
120	1008
125	901.333
130	951.333
135	902.667
140	942
145	910
150	829.333
155	932.667
160	894
165	950
170	925.333
175	804
180	804.667
185	817.333
190	904
195	832
200	906.667
205	903.333
210	902.667
215	931.333
220	926
225	917.333
230	963.333
235	1009.33
240	962
245	987.333
250	956.667
255	950
260	851.333
265	892
270	935.333
275	971.333
280	878.667
285	1024.67
290	994
295	1046.67
300	1068.67
305	1182.67
310	1063.33
315	1020
320	952.667
325	1040
330	1070
335	1006.67
340	989.333
345	936.667
350	1005.33
355	946

; Data for range 48
_DRIVE = COUPLED
_STEPTIME = 1.5
_STEPSIZE = 5
_STEPMODE = C
_START = 0
_THETA = 23.999
_2THETA = 47.998
_KHI = 55
_PHI = 0
_X = -0.00002
_Y = 0
_Z = -0.061992
_DETECTORSLIT = out
_TIMESTARTED = 5398.845
_KV = 40
_MA = 40
_RANGE_WL = 1.5406
_3DPLANE = 0
_V4_PSD2THETA = 9999
_V4_PSDCHANNEL1 = 0
_V4_PSDAPERTURE = 14.325
_V4_PSDTYPE = 5
_V4_PSDFIXED = 0
_V4_COUNTERS_MASK = 1
_V4_DRIVES_MASK = 0
_V4_ENCODERS_MASK = 0
_2THETACOUNTS = 1
; 2THETA	Cnt2_D1
0.000000	939.333
5.000000	913.333
10	866.667
15	917.333
20	874.667
25	954
30	960
35	924
40	916.667
45	956
50	922.667
55	905.333
60	902
65	876.667
70	846
75	840.667
80	863.333
85	772.667
90	742
95	765.333
100	752.667
105	778
110	797.333
115	830.667
120	876.667
125	906
130	835.333
135	858.667
140	810
145	793.333
150	779.333
155	777.333
160	726.667
165	806
170	775.333
175	804.667
180	811.333
185	768.667
190	816
195	866.667
200	788
205	786
210	820
215	811.333
220	847.333
225	892
230	852.667
235	886.667
240	854
245	812
250	790
255	856.667
260	770
265	820
270	794.667
275	791.333
280	841.333
285	896
290	914.667
295	896.667
300	907.333
305	959.333
310	961.333
315	956
320	902.667
325	1032.67
330	913.333
335	834.667
340	946
345	856
350	952.667
355	853.333

; Data for range 49
_DRIVE = COUPLED
_STEPTIME = 1.5
_STEPSIZE = 5
_STEPMODE = C
_START = 0
_THETA = 23.999
_2THETA = 47.998
_KHI = 60
_PHI = 0
_X = -0.00002
_Y = 0
_Z = -0.061992
_DETECTORSLIT = out
_TIMESTARTED = 5512.491
_KV = 40
_MA = 40
_RANGE_WL = 1.5406
_3DPLANE = 0
_V4_PSD2THETA = 9999
_V4_PSDCHANNEL1 = 0
_V4_PSDAPERTURE = 14.325
_V4_PSDTYPE = 5
_V4_PSDFIXED = 0
_V4_COUNTERS_MASK = 1
_V4_DRIVES_MASK = 0
_V4_ENCODERS_MASK = 0
_2THETACOUNTS = 1
; 2THETA	Cnt2_D1
0.000000	795.333
5.000000	805.333
10	797.333
15	775.333
20	770
25	778.667
30	848.667
35	833.333
40	784
45	812.667
50	824.667
55	804
60	781.333
65	689.333
70	750.667
75	645.333
80	651.333
85	636
90	604
95	637.333
100	600
105	668.667
110	634.667
115	681.333
120	715.333
125	727.333
130	756.667
135	725.333
140	672.667
145	698
150	778
155	702.667
160	686.667
165	671.333
170	672.667
175	730
180	746.667
185	693.333
190	686
195	657.333
200	736
205	710
210	747.333
215	734
220	762
225	830
230	751.333
235	775.333
240	811.333
245	716.667
250	768
255	672.667
260	722
265	682
270	735.333
275	750.667
280	715.333
285	768
290	783.333
295	794.667
300	893.333
305	895.333
310	902.667
315	894
320	892
325	870
330	840.667
335	757.333
340	806
345	764.667
350	812
355	810.667

; Data for range 50
_DRIVE = COUPLED
_STEPTIME = 1.5
_STEPSIZE = 5
_STEPMODE = C
_START = 0
_THETA = 23.999
_2THETA = 47.998
_KHI = 65
_PHI = 0
_X = -0.00002
_Y = 0
_Z = -0.061992
_DETECTORSLIT = out
_TIMESTARTED = 5626.106
_KV = 40
_MA = 40
_RANGE_WL = 1.5406
_3DPLANE = 0
_V4_PSD2THETA = 9999
_V4_PSDCHANNEL1 = 0
_V4_PSDAPERTURE = 14.325
_V4_PSDTYPE = 5
_V4_PSDFIXED = 0
_V4_COUNTERS_MASK = 1
_V4_DRIVES_MASK = 0
_V4_ENCODERS_MASK = 0
_2THETACOUNTS = 1
; 2THETA	Cnt2_D1
0.000000	680.667
5.000000	698
10	646
15	709.333
20	722.667
25	747.333
30	745.333
35	771.333
40	730
45	752.667
50	680
55	658.667
60	574.667
65	532.667
70	518.667
75	497.333
80	504
85	513.333
90	500.667
95	542.667
100	472.667
105	449.333
110	487.333
115	523.333
120	573.333
125	584
130	610
135	653.333
140	590.667
145	606
150	608
155	572.667
160	630.667
165	602.667
170	578.667
175	582
180	582
185	609.333
190	632
195	620.667
200	598
205	658
210	615.333
215	665.333
220	646.667
225	670
230	682.667
235	694.667
240	638.667
245	640.667
250	553.333
255	556.667
260	536.667
265	526.667
270	549.333
275	558
280	583.333
285	552.667
290	659.333
295	662.667
300	679.333
305	680.667
310	690.667
315	738.667
320	741.333
325	702
330	762
335	686
340	704.667
345	738
350	655.333
355	715.333

; Data for range 51
_DRIVE = COUPLED
_STEPTIME = 1.5
_STEPSIZE = 5
_STEPMODE = C
_START = 0
_THETA = 23.999
_2THETA = 47.998
_KHI = 70
_PHI = 0
_X = -0.00002
_Y = 0
_Z = -0.061992
_DETECTORSLIT = out
_TIMESTARTED = 5739.737
_KV = 40
_MA = 40
_RANGE_WL = 1.5406
_3DPLANE = 0
_V4_PSD2THETA = 9999
_V4_PSDCHANNEL1 = 0
_V4_PSDAPERTURE = 14.325
_V4_PSDTYPE = 5
_V4_PSDFIXED = 0
_V4_COUNTERS_MASK = 1
_V4_DRIVES_MASK = 0
_V4_ENCODERS_MASK = 0
_2THETACOUNTS = 1
; 2THETA	Cnt2_D1
0.000000	624.667
5.000000	624
10	630.667
15	627.333
20	641.333
25	627.333
30	620.667
35	620.667
40	624.667
45	607.333
50	558.667
55	466
60	466
65	406
70	445.333
75	432.667
80	364.667
85	428.667
90	330
95	356
100	360.667
105	396.667
110	410
115	393.333
120	490.667
125	506
130	552.667
135	515.333
140	578
145	564
150	538
155	538
160	516
165	524
170	534.667
175	548.667
180	606
185	582
190	556.667
195	562.667
200	546
205	554
210	564
215	615.333
220	546
225	568
230	542
235	504.667
240	489.333
245	459.333
250	444
255	423.333
260	414.667
265	403.333
270	395.333
275	440
280	446.667
285	437.333
290	465.333
295	516.667
300	550
305	548.667
310	598.667
315	600.667
320	678
325	640.667
330	639.333
335	605.333
340	634
345	585.333
350	620.667
355	578.667

; Data for range 52
_DRIVE = COUPLED
_STEPTIME = 1.5
_STEPSIZE = 5
_STEPMODE = C
_START = 0
_THETA = 23.999
_2THETA = 47.998
_KHI = 75
_PHI = 0
_X = -0.00002
_Y = 0
_Z = -0.061992
_DETECTORSLIT = out
_TIMESTARTED = 5853.477
_KV = 40
_MA = 40
_RANGE_WL = 1.5406
_3DPLANE = 0
_V4_PSD2THETA = 9999
_V4_PSDCHANNEL1 = 0
_V4_PSDAPERTURE = 14.325
_V4_PSDTYPE = 5
_V4_PSDFIXED = 0
_V4_COUNTERS_MASK = 1
_V4_DRIVES_MASK = 0
_V4_ENCODERS_MASK = 0
_2THETACOUNTS = 1
; 2THETA	Cnt2_D1
0.000000	553.333
5.000000	554.667
10	548.667
15	532
20	505.333
25	516.667
30	498.667
35	518
40	504
45	458
50	436
55	438
60	384.667
65	372
70	408
75	363.333
80	360
85	328
90	300.667
95	326
100	322
105	322
110	354
115	360.667
120	367.333
125	412
130	446
135	438
140	467.333
145	484
150	438.667
155	436.667
160	473.333
165	452
170	451.333
175	458
180	459.333
185	505.333
190	490.667
195	483.333
200	512.667
205	468
210	506.667
215	476
220	506.667
225	456.667
230	402.667
235	372
240	404
245	391.333
250	367.333
255	338.667
260	323.333
265	316
270	323.333
275	300.667
280	301.333
285	361.333
290	356
295	348
300	395.333
305	412
310	497.333
315	498.667
320	542.667
325	580
330	546
335	553.333
340	569.333
345	518.667
350	586.667
355	602

; Data for range 53
_DRIVE = COUPLED
_STEPTIME = 1.5
_STEPSIZE = 5
_STEPMODE = C
_START = 0
_THETA = 23.999
_2THETA = 47.998
_KHI = 80
_PHI = 0
_X = -0.00002
_Y = 0
_Z = -0.061992
_DETECTORSLIT = out
_TIMESTARTED = 5967.045
_KV = 40
_MA = 40
_RANGE_WL = 1.5406
_3DPLANE = 0
_V4_PSD2THETA = 9999
_V4_PSDCHANNEL1 = 0
_V4_PSDAPERTURE = 14.325
_V4_PSDTYPE = 5
_V4_PSDFIXED = 0
_V4_COUNTERS_MASK = 1
_V4_DRIVES_MASK = 0
_V4_ENCODERS_MASK = 0
_2THETACOUNTS = 1
; 2THETA	Cnt2_D1
0.000000	469.333
5.000000	470
10	430
15	416.667
20	386.667
25	400.667
30	378
35	384
40	365.333
45	345.333
50	308
55	305.333
60	331.333
65	332.667
70	350
75	330
80	354
85	329.333
90	306.667
95	294.667
100	266
105	255.333
110	282.667
115	287.333
120	336.667
125	342
130	375.333
135	394.667
140	400.667
145	387.333
150	378
155	381.333
160	342
165	374.667
170	402
175	388
180	404.667
185	473.333
190	450.667
195	407.333
200	420.667
205	356.667
210	395.333
215	341.333
220	348
225	292.667
230	311.333
235	278
240	306
245	319.333
250	309.333
255	270.667
260	315.333
265	306.667
270	311.333
275	295.333
280	269.333
285	258.667
290	236.667
295	285.333
300	276
305	332
310	350.667
315	380
320	423.333
325	414
330	414.667
335	413.333
340	429.333
345	432
350	456.667
355	502

; Data for range 54
_DRIVE = COUPLED
_STEPTIME = 1.5
_STEPSIZE = 5
_STEPMODE = C
_START = 0
_THETA = 23.999
_2THETA = 47.998
_KHI = 85
_PHI = 0
_X = -0.00002
_Y = 0
_Z = -0.061992
_DETECTORSLIT = out
_TIMESTARTED = 6080.597
_KV = 40
_MA = 40
_RANGE_WL = 1.5406
_3DPLANE = 0
_V4_PSD2THETA = 9999
_V4_PSDCHANNEL1 = 0
_V4_PSDAPERTURE = 14.325
_V4_PSDTYPE = 5
_V4_PSDFIXED = 0
_V4_COUNTERS_MASK = 1
_V4_DRIVES_MASK = 0
_V4_ENCODERS_MASK = 0
_2THETACOUNTS = 1
; 2THETA	Cnt2_D1
0.000000	327.333
5.000000	360.667
10	363.333
15	259.333
20	188.667
25	165.333
30	114.667
35	106.667
40	59.3333
45	58
50	30
55	28.6667
60	21.3333
65	26.6667
70	28
75	28
80	40
85	52
90	36.6667
95	40.6667
100	52
105	47.3333
110	66.6667
115	79.3333
120	108
125	108.667
130	121.333
135	138
140	127.333
145	144.667
150	178
155	148.667
160	182
165	201.333
170	250
175	252.667
180	312.667
185	370
190	357.333
195	215.333
200	215.333
205	151.333
210	144.667
215	97.3333
220	74.6667
225	55.3333
230	47.3333
235	30
240	24
245	21.3333
250	22.6667
255	17.3333
260	24
265	12.6667
270	32
275	36.6667
280	29.3333
285	58
290	72.6667
295	66.6667
300	87.3333
305	92
310	102.667
315	128.667
320	135.333
325	135.333
330	140.667
335	165.333
340	164.667
345	188.667
350	236
355	308.667